<?xml version="1.0" encoding="UTF-8"?>

<Bundle xmlns="http://hl7.org/fhir">
  <id value="IPS-examples-Bundle-01"/>
  <language value="en-GB"/>
  <identifier>
    <system value="2.16.724.4.8.10.200.10"/>
    <value value="175bd032-8b00-4728-b2dc-748bb1501aed"/>
  </identifier>
  <type value="document"/>
  <entry>
    <fullUrl value="Composition/IPS-examples-Composition-01"/>
    <resource>
      <Composition>
        <id value="IPS-examples-Composition-01"/>
        <meta>
          <profile value="http://hl7.org/fhir/ips/StructureDefinition/composition-uv-ips"/>
        </meta>
        <text>
          <status value="generated"/><div xmlns="http://www.w3.org/1999/xhtml"><p><b>Generated Narrative with Details</b></p><p><b>id</b>: IPS-examples-Composition-01</p><p><b>meta</b>: </p><p><b>identifier</b>: 3f69e0a5-2177-4540-baab-7a5d0877428f</p><p><b>status</b>: final</p><p><b>type</b>: Patient Summary <span style="background: LightGoldenRodYellow">(Details : {LOINC code '60591-5' = 'Patient summary Document', given as 'Patient Summary'})</span></p><p><b>date</b>: Jul 20, 2017 2:30:00 PM</p><p><b>author</b>: <a href="Practitioner/IPS-examples-Practitioner-01">Practitioner/IPS-examples-Practitioner-01</a></p><p><b>title</b>: Patient Summary as of July 20, 2017 14:30</p><p><b>confidentiality</b>: N</p><blockquote><p><b>attester</b></p><p><b>mode</b>: legal</p><p><b>time</b>: Jul 20, 2017 2:30:00 PM</p><p><b>party</b>: <a href="Practitioner/IPS-examples-Practitioner-01">Practitioner/IPS-examples-Practitioner-01</a></p></blockquote><blockquote><p><b>attester</b></p><p><b>mode</b>: legal</p><p><b>time</b>: Jul 20, 2017 2:30:00 PM</p><p><b>party</b>: <a href="Organization/IPS-examples-Organization-01">Organization/IPS-examples-Organization-01</a></p></blockquote><p><b>custodian</b>: <a href="Organization/IPS-examples-Organization-01">Organization/IPS-examples-Organization-01</a></p><h3>RelatesTos</h3><table class="grid"><tr><td>-</td><td><b>Code</b></td><td><b>Target[x]</b></td></tr><tr><td>*</td><td>appends</td><td>c2277753-9f90-4a95-8ddb-a0b3f6e7d292</td></tr></table><h3>Events</h3><table class="grid"><tr><td>-</td><td><b>Code</b></td><td><b>Period</b></td></tr><tr><td>*</td><td>care provision <span style="background: LightGoldenRodYellow">(Details : {http://hl7.org/fhir/v3/ActClass code 'PCPR' = 'care provision)</span></td><td>?? --&gt; Jul 20, 2017 8:30:00 AM</td></tr></table></div>
        </text>
        <identifier>
          <system value="urn:oid:2.16.724.4.8.10.200.10"/>
          <value value="3f69e0a5-2177-4540-baab-7a5d0877428f"/>
        </identifier>
        <status value="final"/>
        <type>
          <coding>
            <system value="http://loinc.org"/>
            <code value="60591-5"/>
            <display value="Patient Summary"/>
          </coding>
        </type>
        <subject>
          <reference value="Patient/IPS-examples-Patient-01"/>
        </subject>
        <date value="2017-07-20T14:30:00+01:00"/>
        <author>
          <reference value="Practitioner/IPS-examples-Practitioner-01"/>
        </author>
        <title value="Patient Summary as of July 20, 2017 14:30"/>
        <confidentiality value="N"/>
        <attester>
          <mode value="legal"/>
          <time value="2017-07-20T14:30:00+01:00"/>
          <party>
            <reference value="Practitioner/IPS-examples-Practitioner-01"/>
          </party>
        </attester>
        <attester>
          <mode value="legal"/>
          <time value="2017-07-20T14:30:00+01:00"/>
          <party>
            <reference value="Organization/IPS-examples-Organization-01"/>
          </party>
        </attester>
        <custodian>
          <reference value="Organization/IPS-examples-Organization-01"/>
        </custodian>
        <relatesTo>
          <code value="appends"/>
          <targetIdentifier>
            <system value="urn:oid:2.16.724.4.8.10.200.10"/>
            <value value="c2277753-9f90-4a95-8ddb-a0b3f6e7d292"/>
          </targetIdentifier>
        </relatesTo>
        <event>
          <code>
            <coding>
              <system value="http://hl7.org/fhir/v3/ActClass"/>
              <code value="PCPR"/>
            </coding>
          </code>
          <period>
            <end value="2017-07-20T14:30:00+01:00"/>
          </period>
        </event>
        <section>
          <title value="Active Problems"/>
          <code>
            <coding>
              <system value="http://loinc.org"/>
              <code value="11450-4"/>
              <display value="Problem list"/>
            </coding>
          </code>
          <text>
            <status value="generated"/><div xmlns="http://www.w3.org/1999/xhtml">Hot flushes</div>
          </text>
          <entry>
            <reference value="Condition/IPS-examples-Condition-01"/>
          </entry>
        </section>
        <section>
          <title value="Medication"/>
          <code>
            <coding>
              <system value="http://loinc.org"/>
              <code value="10160-0"/>
              <display value="Medication use"/>
            </coding>
          </code>
          <text>
            <status value="generated"/><div xmlns="http://www.w3.org/1999/xhtml">
                            <table>
                                <thead>
                                    <tr>
                                        <th>Medication</th>
                                        <th>Strength</th>
                                        <th>Form</th>
                                        <th>Dosage</th>
                                        <th>Comment</th>
                                    </tr>
                                </thead>
                                <tbody>
                                    <tr>
                                        <td>Anastrozole</td>
                                        <td>1 mg</td>
                                        <td>tablet</td>
                                        <td>once daily</td>
                                        <td>treatment for breast cancer</td>
                                    </tr>
                                    <tr>
                                        <td>Black Cohosh Extract</td>
                                        <td> </td>
                                        <td>pil</td>
                                        <td> </td>
                                        <td>herbal supplement</td>
                                    </tr>
                                </tbody>
                            </table>
                        </div>
          </text>
          <entry>
            <reference value="MedicationStatement/IPS-examples-MedicationStatement-01"/>
          </entry>
          <entry>
            <reference value="MedicationStatement/IPS-examples-MedicationStatement-02"/>
          </entry>
        </section>
        <section>
          <title value="Allergies and Intolerances"/>
          <code>
            <coding>
              <system value="http://loinc.org"/>
              <code value="48765-2"/>
              <display value="Allergies and/or adverse reactions"/>
            </coding>
          </code>
          <text>
            <status value="generated"/><div xmlns="http://www.w3.org/1999/xhtml">Allergy to penicillin, high criticality, active</div>
          </text>
          <entry>
            <reference value="AllergyIntolerance/IPS-examples-AllergyIntolerance-01"/>
          </entry>
        </section>
        <section>
          <title value="History of Past Illness"/>
          <code>
            <coding>
              <system value="http://loinc.org"/>
              <code value="11348-0"/>
              <display value="Past illness"/>
            </coding>
          </code>
          <text>
            <status value="generated"/><div xmlns="http://www.w3.org/1999/xhtml">Breast cancer Stage II with no evidence of recurrence following treatment</div>
          </text>
          <entry>
            <reference value="Condition/IPS-examples-Condition-02"/>
          </entry>
        </section>
        <section>
          <title value="Plan of Treatment"/>
          <code>
            <coding>
              <system value="http://loinc.org"/>
              <code value="18776-5"/>
              <display value="Plan of care note"/>
            </coding>
          </code>
          <text>
            <status value="generated"/><div xmlns="http://www.w3.org/1999/xhtml">Continue hormone medication with Anastrozole for total of 5 years and monitor for potential breast cancer recurrence</div>
          </text>
        </section>
        <section>
          <title value="Results"/>
          <code>
            <coding>
              <system value="http://loinc.org"/>
              <code value="30954-2"/>
              <display value="Results"/>
            </coding>
          </code>
          <text>
            <status value="generated"/><div xmlns="http://www.w3.org/1999/xhtml">
                            <table>
                                <thead>
                                    <tr>
                                        <th colspan="3">Blood typing</th>
                                    </tr>
                                </thead>
                                <tbody>
                                    <tr>
                                        <td>Blood group</td>
                                        <td>A+</td>
                                        <td/>
                                     </tr>
                                    <tr>
                                        <td>C Ab [Presence] in Serum or Plasma</td>
                                        <td>Positive</td>
                                        <td/>
                                    </tr>
                                    <tr>
                                        <td>E Ab [Presence] in Serum or Plasma</td>
                                        <td>Positive</td>
                                        <td/>
                                    </tr>
                                    <tr>
                                        <td>Little c Ab [Presence] in Serum or Plasma</td>
                                        <td>Negative</td>
                                        <td/>
                                    </tr>
                                </tbody>
                            </table>
                            <table>
                                <thead>
                                    <tr>
                                        <th colspan="3">Hemoglobin A1c monitoring</th>
                                    </tr>
                                </thead>
                                <tbody>
                                    <tr>
                                        <td>Hemoglobin A1c/Hemoglobin.total in Blood by HPLC</td>
                                        <td>7.5 %</td>
                                        <td/>
                                    </tr>
                                </tbody>
                            </table>
                            <table>
                                <thead>
                                    <tr>
                                        <th colspan="3">Bacteriology</th>
                                    </tr>
                                </thead>
                                <tbody>
                                    <tr>
                                        <td colspan="3">Methicillin resistant Staphylococcus aureus</td>
                                    </tr>
                                    <tr>
                                        <td colspan="3">Healthy carrier of MRSA</td>
                                    </tr>
                                </tbody>
                            </table>
                        </div>
          </text>
          <entry>
            <reference value="Observation/IPS-examples-Observation-01-Sub0"/>
          </entry>
          <entry>
            <reference value="Observation/IPS-examples-Observation-01-Sub1"/>
          </entry>
          <entry>
            <reference value="Observation/IPS-examples-Observation-01-Sub2"/>
          </entry>
          <entry>
            <reference value="Observation/IPS-examples-Observation-01-Sub3"/>
          </entry>
          <entry>
            <reference value="Observation/IPS-examples-Observation-01-0"/>
          </entry>
          <entry>
            <reference value="Observation/IPS-examples-Observation-01-1"/>
          </entry>
          <entry>
            <reference value="Observation/IPS-examples-Observation-01-3"/>
          </entry>
        </section>
      </Composition>
    </resource>
  </entry>
  <entry>
    <fullUrl value="Patient/IPS-examples-Patient-01"/>
    <resource>
      <Patient>
        <id value="IPS-examples-Patient-01"/>
        <meta>
          <profile value="http://hl7.org/fhir/ips/StructureDefinition/patient-uv-ips"/>
        </meta>
        <text>
          <status value="generated"/><div xmlns="http://www.w3.org/1999/xhtml"><p><b>Generated Narrative with Details</b></p><p><b>id</b>: IPS-examples-Patient-01</p><p><b>meta</b>: </p><p><b>identifier</b>: 574687583</p><p><b>active</b>: true</p><p><b>name</b>: Martha DeLarosa </p><p><b>telecom</b>: ph: +31788700800(HOME)</p><p><b>gender</b>: female</p><p><b>birthDate</b>: May 1, 1972</p><p><b>address</b>: Laan Van Europa 1600 Dordrecht 3317 DB Netherlands </p><h3>Contacts</h3><table class="grid"><tr><td>-</td><td><b>Relationship</b></td><td><b>Name</b></td><td><b>Telecom</b></td><td><b>Address</b></td></tr><tr><td>*</td><td>mother <span style="background: LightGoldenRodYellow">(Details : {http://hl7.org/fhir/v3/RoleCode code 'MTH' = 'mother)</span></td><td>Martha Mum </td><td>ph: +33-555-20036(HOME)</td><td>Promenade des Anglais 111 Lyon 69001 France </td></tr></table></div>
        </text>
        <identifier>
          <system value="urn:oid:2.16.840.1.113883.2.4.6.3"/>
          <value value="574687583"/>
        </identifier>
        <active value="true"/>
        <name>
          <family value="DeLarosa"/>
          <given value="Martha"/>
        </name>
        <telecom>
          <system value="phone"/>
          <value value="+31788700800"/>
          <use value="home"/>
        </telecom>
        <gender value="female"/>
        <birthDate value="1972-05-01"/>
        <address>
          <line value="Laan Van Europa 1600"/>
          <city value="Dordrecht"/>
          <postalCode value="3317 DB"/>
          <country value="Netherlands"/>
        </address>
        <contact>
          <relationship>
            <coding>
              <system value="http://hl7.org/fhir/v3/RoleCode"/>
              <code value="MTH"/>
            </coding>
          </relationship>
          <name>
            <family value="Mum"/>
            <given value="Martha"/>
          </name>
          <telecom>
            <system value="phone"/>
            <value value="+33-555-20036"/>
            <use value="home"/>
          </telecom>
          <address>
            <line value="Promenade des Anglais 111"/>
            <city value="Lyon"/>
            <postalCode value="69001"/>
            <country value="France"/>
          </address>
        </contact>
      </Patient>
    </resource>
  </entry>
  <entry>
    <fullUrl value="Practitioner/IPS-examples-Practitioner-01"/>
    <resource>
      <Practitioner>
        <id value="IPS-examples-Practitioner-01"/>
        <text>
          <status value="generated"/><div xmlns="http://www.w3.org/1999/xhtml"><p><b>Generated Narrative with Details</b></p><p><b>id</b>: IPS-examples-Practitioner-01</p><p><b>identifier</b>: 129854633</p><p><b>active</b>: true</p><p><b>name</b>: Beetje van Hulp </p><h3>Qualifications</h3><table class="grid"><tr><td>-</td><td><b>Code</b></td></tr><tr><td>*</td><td>Generalist medical practitioners <span style="background: LightGoldenRodYellow">(Details : {urn:oid:2.16.840.1.113883.2.9.6.2.7 code '2211' = '2211', given as 'Generalist medical practitioners'}; {urn:oid:2.16.840.1.113883.2.4.15.111 code '01.015' = '01.015', given as 'Huisarts'})</span></td></tr></table></div>
        </text>
        <identifier>
          <system value="urn:oid:2.16.528.1.1007.3.1"/>
          <value value="129854633"/>
          <assigner>
            <display value="CIBG"/>
          </assigner>
        </identifier>
        <active value="true"/>
        <name>
          <family value="van Hulp"/>
          <given value="Beetje"/>
        </name>
        <qualification>
          <code>
            <coding>
              <system value="urn:oid:2.16.840.1.113883.2.9.6.2.7"/>
              <code value="2211"/>
              <display value="Generalist medical practitioners"/>
            </coding>
            <coding>
              <system value="urn:oid:2.16.840.1.113883.2.4.15.111"/>
              <code value="01.015"/>
              <display value="Huisarts"/>
            </coding>
          </code>
        </qualification>
      </Practitioner>
    </resource>
  </entry>
  <entry>
    <fullUrl value="Organization/IPS-examples-Organization-01"/>
    <resource>
      <Organization>
        <id value="IPS-examples-Organization-01"/>
        <text>
          <status value="generated"/><div xmlns="http://www.w3.org/1999/xhtml"><p><b>Generated Narrative with Details</b></p><p><b>id</b>: IPS-examples-Organization-01</p><p><b>identifier</b>: 564738757</p><p><b>active</b>: true</p><p><b>name</b>: Anorg Aniza Tion BV / The best custodian ever</p><p><b>telecom</b>: ph: +31-51-34343400(WORK)</p><p><b>address</b>: Houttuinen 27 Dordrecht 3311 CE Netherlands (WORK)</p></div>
        </text>
        <identifier>
          <system value="urn:oid:2.16.528.1.1007.3.3"/>
          <value value="564738757"/>
        </identifier>
        <active value="true"/>
        <name value="Anorg Aniza Tion BV / The best custodian ever"/>
        <telecom>
          <system value="phone"/>
          <value value="+31-51-34343400"/>
          <use value="work"/>
        </telecom>
        <address>
          <use value="work"/>
          <line value="Houttuinen 27"/>
          <city value="Dordrecht"/>
          <postalCode value="3311 CE"/>
          <country value="Netherlands"/>
        </address>
      </Organization>
    </resource>
  </entry>
  <entry>
    <fullUrl value="Condition/IPS-examples-Condition-01"/>
    <resource>
      <Condition>
        <id value="IPS-examples-Condition-01"/>
        <meta>
          <profile value="http://hl7.org/fhir/ips/StructureDefinition/condition-uv-ips"/>
        </meta>
        <text>
          <status value="generated"/><div xmlns="http://www.w3.org/1999/xhtml"><p><b>Generated Narrative with Details</b></p><p><b>id</b>: IPS-examples-Condition-01</p><p><b>meta</b>: </p><p><b>identifier</b>: c87bf51c-e53c-4bfe-b8b7-aa62bdd93002</p><p><b>clinicalStatus</b>: active</p><p><b>verificationStatus</b>: confirmed</p><p><b>category</b>: Problem <span style="background: LightGoldenRodYellow">(Details : {LOINC code '75326-9' = 'Problem', given as 'Problem'})</span></p><p><b>severity</b>: Moderate <span style="background: LightGoldenRodYellow">(Details : {LOINC code 'LA6751-7' = 'LA6751-7', given as 'Moderate'})</span></p><p><b>code</b>: Menopausal flushing (finding) <span style="background: LightGoldenRodYellow">(Details : {SNOMED CT code '198436008' = 'Menopausal flushing', given as 'Menopausal flushing (finding)'})</span></p><p><b>subject</b>: <a href="Patient/IPS-examples-Patient-01">Patient/IPS-examples-Patient-01</a></p><p><b>onset</b>: Jan 1, 2015</p><p><b>assertedDate</b>: Oct 1, 2016</p></div>
        </text>
        <identifier>
          <system value="urn:oid:1.2.3.999"/>
          <value value="c87bf51c-e53c-4bfe-b8b7-aa62bdd93002"/>
        </identifier>
        <clinicalStatus value="active"/>
        <verificationStatus value="confirmed"/>
        <category>
          <coding>
            <system value="http://loinc.org"/>
            <code value="75326-9"/>
            <display value="Problem"/>
          </coding>
        </category>
        <severity>
          <coding>
            <system value="http://loinc.org"/>
            <code value="LA6751-7"/>
            <display value="Moderate"/>
          </coding>
        </severity>
      <!--   
                    <coding>
                        <system value="http://hl7.org/fhir/sid/icd-10"/>
                        <code value="N95.1"/>
                        <display value="Menopausal and female climacteric states"/>
                    </coding>
                     -->
        <code>
          <coding>
            <extension url="http://hl7.org/fhir/StructureDefinition/translation">
              <extension url="lang">
                <valueCode value="nl-NL"/>
              </extension>
              <extension url="content">
                <valueString value="opvliegers"/>
              </extension>
            </extension>
            <system value="http://snomed.info/sct"/>
            <code value="198436008"/>
            <display value="Menopausal flushing (finding)"/>
          </coding>
        </code>
        <subject>
          <reference value="Patient/IPS-examples-Patient-01"/>
        </subject>
        <onsetDateTime value="2015"/>
        <assertedDate value="2016-10"/>
      </Condition>
    </resource>
  </entry>
  <entry>
    <fullUrl value="MedicationStatement/IPS-examples-MedicationStatement-01"/>
    <resource>
      <MedicationStatement>
        <id value="IPS-examples-MedicationStatement-01"/>
        <meta>
          <profile value="http://hl7.org/fhir/ips/StructureDefinition/medicationstatement-uv-ips"/>
        </meta>
        <text>
          <status value="generated"/><div xmlns="http://www.w3.org/1999/xhtml"><p><b>Generated Narrative with Details</b></p><p><b>id</b>: IPS-examples-MedicationStatement-01</p><p><b>meta</b>: </p><p><b>identifier</b>: b75f92cb-61d4-469a-9387-df5ef70d25f0</p><p><b>status</b>: active</p><p><b>medication</b>: <a href="Medication/IPS-examples-Medication-01">Medication/IPS-examples-Medication-01</a></p><p><b>effective</b>: Mar 1, 2015 12:00:00 AM --&gt; (ongoing)</p><p><b>subject</b>: <a href="Patient/IPS-examples-Patient-01">Patient/IPS-examples-Patient-01</a></p><p><b>taken</b>: y</p><p><b>dosage</b>: </p></div>
        </text>
        <identifier>
          <system value="urn:oid:1.2.3.999"/>
          <value value="b75f92cb-61d4-469a-9387-df5ef70d25f0"/>
        </identifier>
        <status value="active"/>
        <medicationReference>
          <reference value="Medication/IPS-examples-Medication-01"/>
        </medicationReference>
        <effectivePeriod>
          <start value="2015-03"/>
        </effectivePeriod>
        <subject>
          <reference value="Patient/IPS-examples-Patient-01"/>
        </subject>
        <taken value="y"/>
        <dosage>
          <timing>
            <repeat>
              <count value="1"/>
              <periodUnit value="d"/>
            </repeat>
          </timing>
          <route>
            <coding>
              <system value="urn:oid:0.4.0.127.0.16.1.1.2.1"/>
              <code value="20053000"/>
              <display value="Oral use"/>
            </coding>
          </route>
          <doseQuantity>
            <value value="1"/>
            <unit value="tablet"/>
            <system value="http://unitsofmeasure.org"/>
            <code value="tbl"/>
          </doseQuantity>
        </dosage>
      </MedicationStatement>
    </resource>
  </entry>
  <entry>
    <fullUrl value="MedicationStatement/IPS-examples-MedicationStatement-02"/>
    <resource>
      <MedicationStatement>
        <id value="IPS-examples-MedicationStatement-02"/>
        <meta>
          <profile value="http://hl7.org/fhir/ips/StructureDefinition/medicationstatement-uv-ips"/>
        </meta>
        <text>
          <status value="generated"/><div xmlns="http://www.w3.org/1999/xhtml"><p><b>Generated Narrative with Details</b></p><p><b>id</b>: IPS-examples-MedicationStatement-02</p><p><b>meta</b>: </p><p><b>identifier</b>: 9e312d6b-c6b6-439a-a730-6efaa5dcf8bc</p><p><b>status</b>: active</p><p><b>medication</b>: <a href="Medication/IPS-examples-Medication-02">Medication/IPS-examples-Medication-02</a></p><p><b>effective</b>: Jan 1, 2016 12:00:00 AM --&gt; (ongoing)</p><p><b>subject</b>: <a href="Patient/IPS-examples-Patient-01">Patient/IPS-examples-Patient-01</a></p><p><b>taken</b>: y</p><p><b>dosage</b>: </p></div>
        </text>
        <identifier>
          <system value="urn:oid:1.2.3.999"/>
          <value value="9e312d6b-c6b6-439a-a730-6efaa5dcf8bc"/>
        </identifier>
        <status value="active"/>
        <medicationReference>
          <reference value="Medication/IPS-examples-Medication-02"/>
        </medicationReference>
        <effectivePeriod>
          <start value="2016-01"/>
        </effectivePeriod>
        <subject>
          <reference value="Patient/IPS-examples-Patient-01"/>
        </subject>
        <taken value="y"/>
        <dosage>
          <route>
            <coding>
              <system value="urn:oid:0.4.0.127.0.16.1.1.2.1"/>
              <code value="20053000"/>
              <display value="Oral use"/>
            </coding>
          </route>
        </dosage>
      </MedicationStatement>
    </resource>
  </entry>
  <entry>
    <fullUrl value="Medication/IPS-examples-Medication-01"/>
    <resource>
      <Medication>
        <id value="IPS-examples-Medication-01"/>
        <meta>
          <profile value="http://hl7.org/fhir/ips/StructureDefinition/medication-uv-ips"/>
        </meta>
        <text>
          <status value="generated"/><div xmlns="http://www.w3.org/1999/xhtml"><p><b>Generated Narrative with Details</b></p><p><b>id</b>: IPS-examples-Medication-01</p><p><b>meta</b>: </p><p><b>code</b>: Anastrozole (product) <span style="background: LightGoldenRodYellow">(Details : {SNOMED CT code '108774000' = 'Anastrozole', given as 'Anastrozole (product)'}; {urn:oid:2.16.840.1.113883.2.4.4.1 code '99872' = '99872', given as 'ANASTROZOL 1MG TABLET'}; {urn:oid:2.16.840.1.113883.2.4.4.7 code '2076667' = '2076667', given as 'ANASTROZOL CF TABLET FILMOMHULD 1MG'})</span></p></div>
        </text>
        <code>
          <coding>
            <system value="http://snomed.info/sct"/>
            <code value="108774000"/>
            <display value="Anastrozole (product)"/>
          </coding>
          <coding>
            <system value="urn:oid:2.16.840.1.113883.2.4.4.1"/>
            <code value="99872"/>
            <display value="ANASTROZOL 1MG TABLET"/>
          </coding>
          <coding>
            <system value="urn:oid:2.16.840.1.113883.2.4.4.7"/>
            <code value="2076667"/>
            <display value="ANASTROZOL CF TABLET FILMOMHULD 1MG"/>
          </coding>
        </code>
      </Medication>
    </resource>
  </entry>
  <entry>
    <fullUrl value="Medication/IPS-examples-Medication-02"/>
    <resource>
      <Medication>
        <id value="IPS-examples-Medication-02"/>
        <meta>
          <profile value="http://hl7.org/fhir/ips/StructureDefinition/medication-uv-ips"/>
        </meta>
        <text>
          <status value="generated"/><div xmlns="http://www.w3.org/1999/xhtml"><p><b>Generated Narrative with Details</b></p><p><b>id</b>: IPS-examples-Medication-02</p><p><b>meta</b>: </p><p><b>code</b>: Black Cohosh Extract herbal supplement <span style="background: LightGoldenRodYellow">(Details : {SNOMED CT code '412588001' = 'Cimicifuga racemosa extract (substance)', given as 'Cimicifuga racemosa extract (substance)'})</span></p></div>
        </text>
        <code>
          <coding>
            <extension url="http://hl7.org/fhir/StructureDefinition/translation">
              <extension url="lang">
                <valueCode value="nl-NL"/>
              </extension>
              <extension url="content">
                <valueString value="Zwarte Cohosh Extract"/>
              </extension>
            </extension>
            <system value="http://snomed.info/sct"/>
            <code value="412588001"/>
            <display value="Cimicifuga racemosa extract (substance)"/>
          </coding>
          <text value="Black Cohosh Extract herbal supplement"/>
        </code>
      </Medication>
    </resource>
  </entry>
  <entry>
    <fullUrl value="AllergyIntolerance/IPS-examples-AllergyIntolerance-01"/>
    <resource>
      <AllergyIntolerance>
        <id value="IPS-examples-AllergyIntolerance-01"/>
        <meta>
          <profile value="http://hl7.org/fhir/ips/StructureDefinition/allergyintolerance-uv-ips"/>
        </meta>
        <text>
          <status value="generated"/><div xmlns="http://www.w3.org/1999/xhtml"><p><b>Generated Narrative with Details</b></p><p><b>id</b>: IPS-examples-AllergyIntolerance-01</p><p><b>meta</b>: </p><p><b>identifier</b>: 3a462598-009c-484a-965c-d6b24a821424</p><p><b>clinicalStatus</b>: active</p><p><b>verificationStatus</b>: confirmed</p><p><b>type</b>: allergy</p><p><b>category</b>: medication</p><p><b>criticality</b>: high</p><p><b>code</b>: Penicillin -class of antibiotic- (substance) <span style="background: LightGoldenRodYellow">(Details : {SNOMED CT code '373270004' = 'Penicillin -class of antibiotic- (substance)', given as 'Penicillin -class of antibiotic- (substance)'})</span></p><p><b>patient</b>: <a href="Patient/IPS-examples-Patient-01">Patient/IPS-examples-Patient-01</a></p><p><b>onset</b>: Jan 1, 2010</p></div>
        </text>
        <identifier>
          <system value="urn:oid:1.2.3.999"/>
          <value value="3a462598-009c-484a-965c-d6b24a821424"/>
        </identifier>
        <clinicalStatus value="active"/>
        <verificationStatus value="confirmed"/>
        <type value="allergy"/>
        <category value="medication"/>
        <criticality value="high"/>
        <code>
          <coding>
            <system value="http://snomed.info/sct"/>
            <code value="373270004"/>
            <display value="Penicillin -class of antibiotic- (substance)"/>
          </coding>
        </code>
        <patient>
          <reference value="Patient/IPS-examples-Patient-01"/>
        </patient>
        <onsetDateTime value="2010"/>
      </AllergyIntolerance>
    </resource>
  </entry>
  <entry>
    <fullUrl value="Condition/IPS-examples-Condition-02"/>
    <resource>
      <Condition>
        <id value="IPS-examples-Condition-02"/>
        <meta>
          <profile value="http://hl7.org/fhir/ips/StructureDefinition/condition-uv-ips"/>
        </meta>
        <text>
          <status value="generated"/><div xmlns="http://www.w3.org/1999/xhtml"><p><b>Generated Narrative with Details</b></p><p><b>id</b>: IPS-examples-Condition-02</p><p><b>meta</b>: </p><p><b>identifier</b>: 66d4a8c7-9081-43e0-a63f-489c2ae6edd6</p><p><b>clinicalStatus</b>: remission</p><p><b>verificationStatus</b>: confirmed</p><p><b>category</b>: Problem <span style="background: LightGoldenRodYellow">(Details : {LOINC code '75326-9' = 'Problem', given as 'Problem'})</span></p><p><b>severity</b>: Clinical stage II (finding) <span style="background: LightGoldenRodYellow">(Details : {SNOMED CT code '60333009' = 'Clinical stage II', given as 'Clinical stage II (finding)'})</span></p><p><b>code</b>: Malignant neoplasm of breast (disorder) <span style="background: LightGoldenRodYellow">(Details : {SNOMED CT code '254837009' = 'Malignant tumor of breast', given as 'Malignant neoplasm of breast (disorder)'}; {urn:oid:2.16.840.1.113883.6.43 code '8500/3' = '8500/3', given as 'Infiltrating duct carcinoma, NOS'})</span></p><p><b>subject</b>: <a href="Patient/IPS-examples-Patient-01">Patient/IPS-examples-Patient-01</a></p><p><b>onset</b>: Jan 1, 2015</p><p><b>abatement</b>: Mar 1, 2015</p></div>
        </text>
        <identifier>
          <system value="urn:oid:1.2.3.999"/>
          <value value="66d4a8c7-9081-43e0-a63f-489c2ae6edd6"/>
        </identifier>
        <clinicalStatus value="remission"/>
        <verificationStatus value="confirmed"/>
        <category>
          <coding>
            <system value="http://loinc.org"/>
            <code value="75326-9"/>
            <display value="Problem"/>
          </coding>
        </category>
        <severity>
          <coding>
            <system value="http://snomed.info/sct"/>
            <code value="60333009"/>
            <display value="Clinical stage II (finding)"/>
          </coding>
        </severity>
        <code>
          <coding>
            <extension url="http://hl7.org/fhir/StructureDefinition/translation">
              <extension url="lang">
                <valueCode value="nl-NL"/>
              </extension>
              <extension url="content">
                <valueString value="Borstkanker stadium II zonder aanwijzingen van recidieven na behandeling"/>
              </extension>
            </extension>
            <system value="http://snomed.info/sct"/>
            <code value="254837009"/>
            <display value="Malignant neoplasm of breast (disorder)"/>
          </coding>
          <coding>
            <system value="urn:oid:2.16.840.1.113883.6.43"/>
            <code value="8500/3"/>
            <display value="Infiltrating duct carcinoma, NOS"/>
          </coding>
        </code>
        <subject>
          <reference value="Patient/IPS-examples-Patient-01"/>
        </subject>
        <onsetDateTime value="2015-01"/>
        <abatementDateTime value="2015-03"/>
      </Condition>
    </resource>
  </entry>
  <entry>
    <fullUrl value="Organization/IPS-examples-Organization-02"/>
    <resource>
      <Organization>
        <id value="IPS-examples-Organization-02"/>
        <text>
          <status value="generated"/><div xmlns="http://www.w3.org/1999/xhtml"><p><b>Generated Narrative with Details</b></p><p><b>id</b>: IPS-examples-Organization-02</p><p><b>active</b>: true</p><p><b>type</b>: laboratory-medicine <span style="background: LightGoldenRodYellow">(Details : {urn:oid:2.16.840.1.113883.4.642.3.403 code 'laboratory-medicine' = 'laboratory-medicine)</span></p><p><b>name</b>: Laboratoire de charme</p></div>
        </text>
        <active value="true"/>
        <type>
          <coding>
            <system value="urn:oid:2.16.840.1.113883.4.642.3.403"/>
            <code value="laboratory-medicine"/>
          </coding>
        </type>
        <name value="Laboratoire de charme"/>
      </Organization>
    </resource>
  </entry>
  <entry>
    <fullUrl value="Observation/IPS-examples-Observation-01-Sub0"/>
    <resource>
      <Observation>
        <id value="IPS-examples-Observation-01-Sub0"/>
        <meta>
          <profile value="http://hl7.org/fhir/ips/StructureDefinition/observation-member-laboratory-uv-ips"/>
        </meta>
        <text>
          <status value="generated"/><div xmlns="http://www.w3.org/1999/xhtml"><p><b>Generated Narrative with Details</b></p><p><b>id</b>: IPS-examples-Observation-01-Sub0</p><p><b>meta</b>: </p><p><b>status</b>: final</p><p><b>category</b>: Laboratory <span style="background: LightGoldenRodYellow">(Details : {http://hl7.org/fhir/observation-category code 'laboratory' = 'Laboratory)</span></p><p><b>code</b>: ABO and Rh group [Type] in Blood <span style="background: LightGoldenRodYellow">(Details : {LOINC code '882-1' = 'ABO and Rh group [Type] in Blood', given as 'ABO and Rh group [Type] in Blood'})</span></p><p><b>subject</b>: <a href="Patient/IPS-examples-Patient-01">Patient/IPS-examples-Patient-01</a></p><p><b>effective</b>: Oct 10, 2015 9:15:00 AM</p><p><b>value</b>: Blood group A Rh(D) positive <span style="background: LightGoldenRodYellow">(Details : {SNOMED CT code '278149003' = 'Blood group A Rh(D) positive', given as 'Blood group A Rh(D) positive'})</span></p></div>
        </text>
        <status value="final"/>
        <category>
          <coding>
            <system value="http://hl7.org/fhir/observation-category"/>
            <code value="laboratory"/>
          </coding>
        </category>
        <code>
          <coding>
            <system value="http://loinc.org"/>
            <code value="882-1"/>
            <display value="ABO and Rh group [Type] in Blood"/>
          </coding>
        </code>
        <subject>
          <reference value="Patient/IPS-examples-Patient-01"/>
        </subject>
        <effectiveDateTime value="2015-10-10T09:15:00+01:00"/>
        <valueCodeableConcept>
          <coding>
            <system value="http://snomed.info/sct"/>
            <code value="278149003"/>
            <display value="Blood group A Rh(D) positive"/>
          </coding>
        </valueCodeableConcept>
      </Observation>
    </resource>
  </entry>
  <entry>
    <fullUrl value="Observation/IPS-examples-Observation-01-Sub1"/>
    <resource>
      <Observation>
        <id value="IPS-examples-Observation-01-Sub1"/>
        <meta>
          <profile value="http://hl7.org/fhir/ips/StructureDefinition/observation-member-laboratory-uv-ips"/>
        </meta>
        <text>
          <status value="generated"/><div xmlns="http://www.w3.org/1999/xhtml"><p><b>Generated Narrative with Details</b></p><p><b>id</b>: IPS-examples-Observation-01-Sub1</p><p><b>meta</b>: </p><p><b>status</b>: final</p><p><b>category</b>: Laboratory <span style="background: LightGoldenRodYellow">(Details : {http://hl7.org/fhir/observation-category code 'laboratory' = 'Laboratory)</span></p><p><b>code</b>: C Ab [Presence] in Serum or Plasma <span style="background: LightGoldenRodYellow">(Details : {LOINC code '945-6' = 'C Ab [Presence] in Serum or Plasma', given as 'C Ab [Presence] in Serum or Plasma'})</span></p><p><b>subject</b>: <a href="Patient/IPS-examples-Patient-01">Patient/IPS-examples-Patient-01</a></p><p><b>effective</b>: Oct 10, 2015 9:35:00 AM</p><p><b>value</b>: Positive <span style="background: LightGoldenRodYellow">(Details : {SNOMED CT code '10828004' = 'Positive', given as 'Positive'})</span></p></div>
        </text>
        <status value="final"/>
        <category>
          <coding>
            <system value="http://hl7.org/fhir/observation-category"/>
            <code value="laboratory"/>
          </coding>
        </category>
        <code>
          <coding>
            <system value="http://loinc.org"/>
            <code value="945-6"/>
            <display value="C Ab [Presence] in Serum or Plasma"/>
          </coding>
        </code>
        <subject>
          <reference value="Patient/IPS-examples-Patient-01"/>
        </subject>
        <effectiveDateTime value="2015-10-10T09:35:00+01:00"/>
        <valueCodeableConcept>
          <coding>
            <system value="http://snomed.info/sct"/>
            <code value="10828004"/>
            <display value="Positive"/>
          </coding>
        </valueCodeableConcept>
      </Observation>
    </resource>
  </entry>
  <entry>
    <fullUrl value="Observation/IPS-examples-Observation-01-Sub2"/>
    <resource>
      <Observation>
        <id value="IPS-examples-Observation-01-Sub2"/>
        <meta>
          <profile value="http://hl7.org/fhir/ips/StructureDefinition/observation-member-laboratory-uv-ips"/>
        </meta>
        <text>
          <status value="generated"/><div xmlns="http://www.w3.org/1999/xhtml"><p><b>Generated Narrative with Details</b></p><p><b>id</b>: IPS-examples-Observation-01-Sub2</p><p><b>meta</b>: </p><p><b>status</b>: final</p><p><b>category</b>: Laboratory <span style="background: LightGoldenRodYellow">(Details : {http://hl7.org/fhir/observation-category code 'laboratory' = 'Laboratory)</span></p><p><b>code</b>: E Ab [Presence] in Serum or Plasma <span style="background: LightGoldenRodYellow">(Details : {LOINC code '1018-1' = 'E Ab [Presence] in Serum or Plasma', given as 'E Ab [Presence] in Serum or Plasma'})</span></p><p><b>subject</b>: <a href="Patient/IPS-examples-Patient-01">Patient/IPS-examples-Patient-01</a></p><p><b>effective</b>: Oct 10, 2015 9:35:00 AM</p><p><b>value</b>: Positive <span style="background: LightGoldenRodYellow">(Details : {SNOMED CT code '10828004' = 'Positive', given as 'Positive'})</span></p></div>
        </text>
        <status value="final"/>
        <category>
          <coding>
            <system value="http://hl7.org/fhir/observation-category"/>
            <code value="laboratory"/>
          </coding>
        </category>
        <code>
          <coding>
            <system value="http://loinc.org"/>
            <code value="1018-1"/>
            <display value="E Ab [Presence] in Serum or Plasma"/>
          </coding>
        </code>
        <subject>
          <reference value="Patient/IPS-examples-Patient-01"/>
        </subject>
        <effectiveDateTime value="2015-10-10T09:35:00+01:00"/>
        <valueCodeableConcept>
          <coding>
            <system value="http://snomed.info/sct"/>
            <code value="10828004"/>
            <display value="Positive"/>
          </coding>
        </valueCodeableConcept>
      </Observation>
    </resource>
  </entry>
  <entry>
    <fullUrl value="Observation/IPS-examples-Observation-01-Sub3"/>
    <resource>
      <Observation>
        <id value="IPS-examples-Observation-01-Sub3"/>
        <meta>
          <profile value="http://hl7.org/fhir/ips/StructureDefinition/observation-member-laboratory-uv-ips"/>
        </meta>
        <text>
          <status value="generated"/><div xmlns="http://www.w3.org/1999/xhtml"><p><b>Generated Narrative with Details</b></p><p><b>id</b>: IPS-examples-Observation-01-Sub3</p><p><b>meta</b>: </p><p><b>status</b>: final</p><p><b>category</b>: Laboratory <span style="background: LightGoldenRodYellow">(Details : {http://hl7.org/fhir/observation-category code 'laboratory' = 'Laboratory)</span></p><p><b>code</b>: little c Ab [Presence] in Serum or Plasma <span style="background: LightGoldenRodYellow">(Details : {LOINC code '1156-9' = 'little c Ab [Presence] in Serum or Plasma', given as 'little c Ab [Presence] in Serum or Plasma'})</span></p><p><b>subject</b>: <a href="Patient/IPS-examples-Patient-01">Patient/IPS-examples-Patient-01</a></p><p><b>effective</b>: Oct 10, 2015 9:35:00 AM</p><p><b>value</b>: Negative <span style="background: LightGoldenRodYellow">(Details : {SNOMED CT code '260385009' = 'Negative', given as 'Negative'})</span></p></div>
        </text>
        <status value="final"/>
        <category>
          <coding>
            <system value="http://hl7.org/fhir/observation-category"/>
            <code value="laboratory"/>
          </coding>
        </category>
        <code>
          <coding>
            <system value="http://loinc.org"/>
            <code value="1156-9"/>
            <display value="little c Ab [Presence] in Serum or Plasma"/>
          </coding>
        </code>
        <subject>
          <reference value="Patient/IPS-examples-Patient-01"/>
        </subject>
        <effectiveDateTime value="2015-10-10T09:35:00+01:00"/>
        <valueCodeableConcept>
          <coding>
            <system value="http://snomed.info/sct"/>
            <code value="260385009"/>
            <display value="Negative"/>
          </coding>
        </valueCodeableConcept>
      </Observation>
    </resource>
  </entry>
  <entry>
    <fullUrl value="Observation/IPS-examples-Observation-01-0"/>
    <resource>
      <Observation>
        <id value="IPS-examples-Observation-01-0"/>
        <meta>
          <profile value="http://hl7.org/fhir/ips/StructureDefinition/observation-laboratory-uv-ips"/>
        </meta>
        <text>
          <status value="generated"/><div xmlns="http://www.w3.org/1999/xhtml"><p><b>Generated Narrative with Details</b></p><p><b>id</b>: IPS-examples-Observation-01-0</p><p><b>meta</b>: </p><p><b>status</b>: final</p><p><b>category</b>: Laboratory <span style="background: LightGoldenRodYellow">(Details : {http://hl7.org/fhir/observation-category code 'laboratory' = 'Laboratory)</span></p><p><b>code</b>: Blood typing <span style="background: LightGoldenRodYellow">(Details )</span></p><p><b>subject</b>: <a href="Patient/IPS-examples-Patient-01">Patient/IPS-examples-Patient-01</a></p><p><b>effective</b>: Oct 10, 2015</p><p><b>performer</b>: <a href="Organization/IPS-examples-Organization-02">Organization/IPS-examples-Organization-02</a></p><blockquote><p><b>related</b></p><p><b>type</b>: has-member</p><p><b>target</b>: <a href="Observation/IPS-examples-Observation-01-Sub0">Observation/IPS-examples-Observation-01-Sub0</a></p></blockquote><blockquote><p><b>related</b></p><p><b>type</b>: has-member</p><p><b>target</b>: <a href="Observation/IPS-examples-Observation-01-Sub1">Observation/IPS-examples-Observation-01-Sub1</a></p></blockquote><blockquote><p><b>related</b></p><p><b>type</b>: has-member</p><p><b>target</b>: <a href="Observation/IPS-examples-Observation-01-Sub2">Observation/IPS-examples-Observation-01-Sub2</a></p></blockquote><blockquote><p><b>related</b></p><p><b>type</b>: has-member</p><p><b>target</b>: <a href="Observation/IPS-examples-Observation-01-Sub3">Observation/IPS-examples-Observation-01-Sub3</a></p></blockquote></div>
        </text>
        <status value="final"/>
        <category>
          <coding>
            <system value="http://hl7.org/fhir/observation-category"/>
            <code value="laboratory"/>
          </coding>
        </category>
        <code>
          <text value="Blood typing"/>
        </code>
        <subject>
          <reference value="Patient/IPS-examples-Patient-01"/>
        </subject>
        <effectiveDateTime value="2015-10-10"/>
        <performer>
          <reference value="Organization/IPS-examples-Organization-02"/>
        </performer>
        <related>
          <type value="has-member"/>
          <target>
            <reference value="Observation/IPS-examples-Observation-01-Sub0"/>
          </target>
        </related>
        <related>
          <type value="has-member"/>
          <target>
            <reference value="Observation/IPS-examples-Observation-01-Sub1"/>
          </target>
        </related>
        <related>
          <type value="has-member"/>
          <target>
            <reference value="Observation/IPS-examples-Observation-01-Sub2"/>
          </target>
        </related>
        <related>
          <type value="has-member"/>
          <target>
            <reference value="Observation/IPS-examples-Observation-01-Sub3"/>
          </target>
        </related>
      </Observation>
    </resource>
  </entry>
  <entry>
    <fullUrl value="Observation/IPS-examples-Observation-01-1"/>
    <resource>
      <Observation>
        <id value="IPS-examples-Observation-01-1"/>
        <meta>
          <profile value="http://hl7.org/fhir/ips/StructureDefinition/observation-laboratory-uv-ips"/>
        </meta>
        <text>
          <status value="generated"/><div xmlns="http://www.w3.org/1999/xhtml"><p><b>Generated Narrative with Details</b></p><p><b>id</b>: IPS-examples-Observation-01-1</p><p><b>meta</b>: </p><p><b>status</b>: final</p><p><b>category</b>: Laboratory <span style="background: LightGoldenRodYellow">(Details : {http://hl7.org/fhir/observation-category code 'laboratory' = 'Laboratory)</span></p><p><b>code</b>: Hemoglobin A1c/Hemoglobin.total in Blood by HPLC <span style="background: LightGoldenRodYellow">(Details : {LOINC code '17856-6' = 'Hemoglobin A1c/Hemoglobin.total in Blood by HPLC', given as 'Hemoglobin A1c/Hemoglobin.total in Blood by HPLC'})</span></p><p><b>subject</b>: <a href="Patient/IPS-examples-Patient-01">Patient/IPS-examples-Patient-01</a></p><p><b>effective</b>: Nov 10, 2017 8:20:00 AM</p><p><b>performer</b>: <a href="Organization/IPS-examples-Organization-02">Organization/IPS-examples-Organization-02</a></p><p><b>value</b>: 7.5 %<span style="background: LightGoldenRodYellow"> (Details: UCUM code % = '%')</span></p><p><b>comment</b>: Above stated goal of 7.0 %</p></div>
        </text>
        <status value="final"/>
        <category>
          <coding>
            <system value="http://hl7.org/fhir/observation-category"/>
            <code value="laboratory"/>
          </coding>
        </category>
        <code>
          <coding>
            <system value="http://loinc.org"/>
            <code value="17856-6"/>
            <display value="Hemoglobin A1c/Hemoglobin.total in Blood by HPLC"/>
          </coding>
        </code>
        <subject>
          <reference value="Patient/IPS-examples-Patient-01"/>
        </subject>
        <effectiveDateTime value="2017-11-10T08:20:00+01:00"/>
        <performer>
          <reference value="Organization/IPS-examples-Organization-02"/>
        </performer>
        <valueQuantity>
          <value value="7.5"/>
          <unit value="%"/>
          <system value="http://unitsofmeasure.org"/>
          <code value="%"/>
        </valueQuantity>
        <comment value="Above stated goal of 7.0 %"/>
      </Observation>
    </resource>
  </entry>
  <entry>
    <fullUrl value="Observation/IPS-examples-Observation-01-3"/>
    <resource>
      <Observation>
        <id value="IPS-examples-Observation-01-3"/>
        <meta>
          <profile value="http://hl7.org/fhir/ips/StructureDefinition/observation-laboratory-uv-ips"/>
        </meta>
        <text>
          <status value="generated"/><div xmlns="http://www.w3.org/1999/xhtml"><p><b>Generated Narrative with Details</b></p><p><b>id</b>: IPS-examples-Observation-01-3</p><p><b>meta</b>: </p><p><b>status</b>: final</p><p><b>category</b>: Laboratory <span style="background: LightGoldenRodYellow">(Details : {http://hl7.org/fhir/observation-category code 'laboratory' = 'Laboratory)</span></p><p><b>code</b>: Bacteria identified in Isolate <span style="background: LightGoldenRodYellow">(Details : {LOINC code '42803-7' = 'Bacteria identified in Isolate', given as 'Bacteria identified in Isolate'})</span></p><p><b>subject</b>: <a href="Patient/IPS-examples-Patient-01">Patient/IPS-examples-Patient-01</a></p><p><b>effective</b>: Dec 10, 2017 8:20:00 AM</p><p><b>performer</b>: <a href="Organization/IPS-examples-Organization-02">Organization/IPS-examples-Organization-02</a></p><p><b>value</b>: Methicillin resistant Staphylococcus aureus <span style="background: LightGoldenRodYellow">(Details : {SNOMED CT code '115329001' = 'MRSA', given as 'Methicillin resistant Staphylococcus aureus'})</span></p><p><b>comment</b>: Healthy carrier of MRSA</p></div>
        </text>
        <status value="final"/>
        <category>
          <coding>
            <system value="http://hl7.org/fhir/observation-category"/>
            <code value="laboratory"/>
          </coding>
        </category>
        <code>
          <coding>
            <system value="http://loinc.org"/>
            <code value="42803-7"/>
            <display value="Bacteria identified in Isolate"/>
          </coding>
        </code>
        <subject>
          <reference value="Patient/IPS-examples-Patient-01"/>
        </subject>
        <effectiveDateTime value="2017-12-10T08:20:00+01:00"/>
        <performer>
          <reference value="Organization/IPS-examples-Organization-02"/>
        </performer>
        <valueCodeableConcept>
          <coding>
            <system value="http://snomed.info/sct"/>
            <code value="115329001"/>
            <display value="Methicillin resistant Staphylococcus aureus"/>
          </coding>
        </valueCodeableConcept>
        <comment value="Healthy carrier of MRSA"/>
      </Observation>
    </resource>
  </entry>
</Bundle>