{
  "resourceType": "Bundle",
  "id": "bundle-minimal",
  "language": "en-US",
  "identifier": {
    "system": "urn:oid:2.16.724.4.8.10.200.10",
    "value": "28b95815-76ce-457b-b7ae-a972e527db40"
  },
  "type": "document",
  "timestamp": "2020-12-11T14:30:00+01:00",
  "entry": [
    {
      "fullUrl": "urn:uuid:6e1fb74a-742b-4c7b-8487-171dacb88766",
      "resource": {
        "resourceType": "Composition",
        "id": "6e1fb74a-742b-4c7b-8487-171dacb88766",
        "status": "final",
        "type": {
          "coding": [
            {
              "code": "60591-5",
              "system": "http://loinc.org",
              "display": "Patient summary Document"
            }
          ]
        },
        "subject": {
          "reference": "Patient/7685713c-e29e-4a75-8a90-45be7ba3be94"
        },
        "date": "2020-12-11T14:30:00+01:00",
        "author": [
          {
            "reference": "Practitioner/98315ba9-ffea-41ef-b59b-a836c039858f"
          }
        ],
        "title": "Patient Summary as of December 11, 2020 14:30",
        "confidentiality": "N",
        "attester": [
          {
            "mode": "legal",
            "time": "2020-12-11T14:30:00+01:00",
            "party": {
              "reference": "Practitioner/98315ba9-ffea-41ef-b59b-a836c039858f"
            }
          },
          {
            "mode": "legal",
            "time": "2020-12-11T14:30:00+01:00",
            "party": {
              "reference": "Organization/bb6bdf4f-7fcb-4d44-96a5-b858ad031d1d"
            }
          }
        ],
        "custodian": {
          "reference": "Organization/bb6bdf4f-7fcb-4d44-96a5-b858ad031d1d"
        },
        "relatesTo": [
          {
            "code": "appends",
            "targetIdentifier": {
              "system": "urn:oid:2.16.724.4.8.10.200.10",
              "value": "20e12ce3-857f-49c0-b888-cb670597f191"
            }
          }
        ],
        "event": [
          {
            "code": [
              {
                "coding": [
                  {
                    "code": "PCPR",
                    "system": "http://terminology.hl7.org/CodeSystem/v3-ActClass"
                  }
                ]
              }
            ],
            "period": {
              "end": "2020-12-11T14:30:00+01:00"
            }
          }
        ],
        "section": [
          {
            "title": "Active Problems",
            "code": {
              "coding": [
                {
                  "code": "11450-4",
                  "system": "http://loinc.org",
                  "display": "Problem list Reported"
                }
              ]
            },
            "entry": [
              {
                "reference": "Condition/ad84b7a2-b4dd-474e-bef3-0779e6cb595f"
              }
            ]
          },
          {
            "title": "Medication",
            "code": {
              "coding": [
                {
                  "code": "10160-0",
                  "system": "http://loinc.org",
                  "display": "History of Medication use Narrative"
                }
              ]
            },
            "entry": [
              {
                "reference": "MedicationStatement/6e883e5e-7648-485a-86de-3640a61601fe"
              }
            ]
          },
          {
            "title": "Allergies and Intolerances",
            "code": {
              "coding": [
                {
                  "code": "48765-2",
                  "system": "http://loinc.org",
                  "display": "Allergies and adverse reactions Document"
                }
              ]
            },
            "entry": [
              {
                "reference": "AllergyIntolerance/fe2769fd-22c9-4307-9122-ee0466e5aebb"
              }
            ]
          }
        ]
      }
    },
    {
      "fullUrl": "urn:uuid:7685713c-e29e-4a75-8a90-45be7ba3be94",
      "resource": {
        "resourceType": "Patient",
        "id": "7685713c-e29e-4a75-8a90-45be7ba3be94",
        "identifier": [
          {
            "system": "urn:oid:2.16.840.1.113883.2.4.6.3",
            "value": "574687583"
          }
        ],
        "active": true,
        "name": [
          {
            "family": "DeLarosa",
            "given": [
              "Martha"
            ]
          }
        ],
        "telecom": [
          {
            "system": "phone",
            "value": "+31788700800",
            "use": "home"
          }
        ],
        "gender": "female",
        "birthDate": "1972-05-01",
        "address": [
          {
            "line": [
              "Laan Van Europa 1600"
            ],
            "city": "Dordrecht",
            "postalCode": "3317 DB",
            "country": "NL"
          }
        ],
        "contact": [
          {
            "relationship": [
              {
                "coding": [
                  {
                    "code": "MTH",
                    "system": "http://terminology.hl7.org/CodeSystem/v3-RoleCode"
                  }
                ]
              }
            ],
            "name": {
              "family": "Mum",
              "given": [
                "Martha"
              ]
            },
            "telecom": [
              {
                "system": "phone",
                "value": "+33-555-20036",
                "use": "home"
              }
            ],
            "address": {
              "line": [
                "Promenade des Anglais 111"
              ],
              "city": "Lyon",
              "postalCode": "69001",
              "country": "FR"
            }
          }
        ]
      }
    },
    {
      "fullUrl": "urn:uuid:98315ba9-ffea-41ef-b59b-a836c039858f",
      "resource": {
        "resourceType": "Practitioner",
        "id": "98315ba9-ffea-41ef-b59b-a836c039858f",
        "identifier": [
          {
            "system": "urn:oid:2.16.528.1.1007.3.1",
            "value": "129854633",
            "assigner": {
              "display": "CIBG"
            }
          }
        ],
        "active": true,
        "name": [
          {
            "family": "van Hulp",
            "given": [
              "Beetje"
            ]
          }
        ],
        "qualification": [
          {
            "code": {
              "coding": [
                {
                  "code": "MD",
                  "system": "http://terminology.hl7.org/CodeSystem/v2-0360",
                  "version": "2.7",
                  "display": "Doctor of Medicine"
                }
              ]
            }
          }
        ]
      }
    },
    {
      "fullUrl": "urn:uuid:bb6bdf4f-7fcb-4d44-96a5-b858ad031d1d",
      "resource": {
        "resourceType": "Organization",
        "id": "bb6bdf4f-7fcb-4d44-96a5-b858ad031d1d",
        "identifier": [
          {
            "system": "urn:oid:2.16.528.1.1007.3.3",
            "value": "564738757"
          }
        ],
        "active": true,
        "name": "Anorg Aniza Tion BV / The best custodian ever",
        "telecom": [
          {
            "system": "phone",
            "value": "+31-51-34343400",
            "use": "work"
          }
        ],
        "address": [
          {
            "use": "work",
            "line": [
              "Houttuinen 27"
            ],
            "city": "Dordrecht",
            "postalCode": "3311 CE",
            "country": "NL"
          }
        ]
      }
    },
    {
      "fullUrl": "urn:uuid:ad84b7a2-b4dd-474e-bef3-0779e6cb595f",
      "resource": {
        "resourceType": "Condition",
        "id": "ad84b7a2-b4dd-474e-bef3-0779e6cb595f",
        "identifier": [
          {
            "system": "urn:oid:1.2.3.999",
            "value": "cacceb57-395f-48e1-9c88-e9c9704dc2d2"
          }
        ],
        "clinicalStatus": {
          "coding": [
            {
              "code": "active",
              "system": "http://terminology.hl7.org/CodeSystem/condition-clinical"
            }
          ]
        },
        "verificationStatus": {
          "coding": [
            {
              "code": "confirmed",
              "system": "http://terminology.hl7.org/CodeSystem/condition-ver-status"
            }
          ]
        },
        "category": [
          {
            "coding": [
              {
                "code": "75326-9",
                "system": "http://loinc.org",
                "display": "Problem"
              }
            ]
          }
        ],
        "severity": {
          "coding": [
            {
              "code": "LA6751-7",
              "system": "http://loinc.org",
              "display": "Moderate"
            }
          ]
        },
        "code": {
          "coding": [
            {
              "code": "198436008",
              "system": "http://snomed.info/sct",
              "display": "Menopausal flushing (finding)",
              "_display": {
                "extension": [
                  {
                    "url": "http://hl7.org/fhir/StructureDefinition/translation",
                    "extension": [
                      {
                        "url": "lang",
                        "valueCode": "nl-NL"
                      },
                      {
                        "url": "content",
                        "valueString": "opvliegers"
                      }
                    ]
                  }
                ]
              }
            },
            {
              "code": "N95.1",
              "system": "http://hl7.org/fhir/sid/icd-10",
              "display": "Menopausal and female climacteric states"
            }
          ]
        },
        "subject": {
          "reference": "Patient/7685713c-e29e-4a75-8a90-45be7ba3be94"
        },
        "onsetDateTime": "2015",
        "recordedDate": "2016-10"
      }
    },
    {
      "fullUrl": "urn:uuid:6e883e5e-7648-485a-86de-3640a61601fe",
      "resource": {
        "resourceType": "MedicationStatement",
        "id": "6e883e5e-7648-485a-86de-3640a61601fe",
        "identifier": [
          {
            "system": "urn:oid:1.2.3.999",
            "value": "8faf0319-89d3-427c-b9d1-e8c8fd390dca"
          }
        ],
        "status": "active",
        "medicationReference": {
          "reference": "Medication/6369a973-afc7-4617-8877-3e9811e05a5b"
        },
        "subject": {
          "reference": "Patient/7685713c-e29e-4a75-8a90-45be7ba3be94"
        },
        "effectivePeriod": {
          "start": "2015-03"
        },
        "dosage": [
          {
            "timing": {
              "repeat": {
                "count": 1,
                "periodUnit": "d"
              }
            },
            "route": {
              "coding": [
                {
                  "code": "20053000",
                  "system": "http://standardterms.edqm.eu",
                  "display": "Oral use"
                }
              ]
            },
            "doseAndRate": [
              {
                "type": {
                  "coding": [
                    {
                      "code": "ordered",
                      "system": "http://terminology.hl7.org/CodeSystem/dose-rate-type",
                      "display": "Ordered"
                    }
                  ]
                },
                "doseQuantity": {
                  "value": 1,
                  "code": "1",
                  "system": "http://unitsofmeasure.org",
                  "unit": "tablet"
                }
              }
            ]
          }
        ]
      }
    },
    {
      "fullUrl": "urn:uuid:6369a973-afc7-4617-8877-3e9811e05a5b",
      "resource": {
        "resourceType": "Medication",
        "id": "6369a973-afc7-4617-8877-3e9811e05a5b",
        "code": {
          "coding": [
            {
              "code": "108774000",
              "system": "http://snomed.info/sct",
              "display": "Product containing anastrozole (medicinal product)"
            },
            {
              "code": "99872",
              "system": "urn:oid:2.16.840.1.113883.2.4.4.1",
              "display": "ANASTROZOL 1MG TABLET"
            },
            {
              "code": "2076667",
              "system": "urn:oid:2.16.840.1.113883.2.4.4.7",
              "display": "ANASTROZOL CF TABLET FILMOMHULD 1MG"
            },
            {
              "code": "L02BG03",
              "system": "http://www.whocc.no/atc",
              "display": "anastrozole"
            }
          ]
        }
      }
    },
    {
      "fullUrl": "urn:uuid:fe2769fd-22c9-4307-9122-ee0466e5aebb",
      "resource": {
        "resourceType": "AllergyIntolerance",
        "id": "fe2769fd-22c9-4307-9122-ee0466e5aebb",
        "identifier": [
          {
            "system": "urn:oid:1.2.3.999",
            "value": "8d9566a4-d26d-46be-a3e4-c9f3a0e5cd83"
          }
        ],
        "clinicalStatus": {
          "coding": [
            {
              "code": "active",
              "system": "http://terminology.hl7.org/CodeSystem/allergyintolerance-clinical"
            }
          ]
        },
        "verificationStatus": {
          "coding": [
            {
              "code": "confirmed",
              "system": "http://terminology.hl7.org/CodeSystem/allergyintolerance-verification"
            }
          ]
        },
        "type": "allergy",
        "category": [
          "medication"
        ],
        "criticality": "high",
        "code": {
          "coding": [
            {
              "code": "373270004",
              "system": "http://snomed.info/sct",
              "display": "Substance with penicillin structure and antibacterial mechanism of action (substance)"
            }
          ]
        },
        "patient": {
          "reference": "Patient/7685713c-e29e-4a75-8a90-45be7ba3be94"
        },
        "onsetDateTime": "2010"
      }
    }
  ]
}